87                   # Number of wavelengths
    .200
    .210
    .220
    .230
    .240
    .250
    .260
    .270
    .280
    .290
    .300
    .320
    .340
    .360
    .380
    .400
    .450
    .500
    .550
    .600
    .650
    .700
    .735
    .765
    .778
    .825
    .877
    .950
   1.040
   1.150
   1.245
   1.430
   1.625
   1.890
   2.150
   2.590
   3.280
   4.176
   4.380
   4.566
   4.676
   4.859
   5.015
   5.149
   5.456
   5.686
   5.943
   6.368
   6.861
   7.214
   7.613
   7.992
   8.073
   8.257
   8.503
   8.754
   9.030
   9.325
   9.640
   9.976
  10.351
  10.769
  11.223
  11.612
  12.033
  12.602
  12.945
  13.292
  13.966
  14.628
  15.331
  16.201
  17.062
  18.069
  19.384
  20.358
  20.945
  22.245
  24.577
  27.640
  31.575
  36.823
  44.172
  55.213
  73.721
 111.456
 239.046
